current_image,is_repeat,trial_index,is_blank_trial,is_new_run,run_num,loop_all_images.thisRepN,loop_all_images.thisTrialN,loop_all_images.thisN,loop_all_images.thisIndex,thisRow.t,notes,waiting_fmri.started,key_resp_2.started,text_3.started,waiting_fmri.stopped,key_resp_2.keys,key_resp_2.rt,key_resp_2.duration,set_up.started,set_up.stopped,instructions.started,text.started,key_resp.started,instructions.stopped,key_resp.keys,key_resp.rt,key_resp.duration,trial.started,trial.stopped,press_if_repeat.keys,blank_trial.started,key_resp_3.started,polygon_2.started,blank_trial.stopped,key_resp_3.keys,key_resp_3.rt,key_resp_3.duration,block.started,text_2.started,text_2.stopped,block.stopped,polygon.started,image.started,press_if_repeat.started,image.stopped,press_if_repeat.stopped,polygon.stopped,key_resp_3.stopped,polygon_2.stopped,participant,session,date,expName,psychopyVersion,frameRate,expStart,
,,,,,,,,,,,,0.046199071999581065,0.05720353899960173,0.05720353899960173,282.11931077600093,5,282.06068740400224,None,,,,,,,,,,,,,,,,,,,,,,,,,,,,,,,,1,001,2024-03-13_15h54.44.364,replicate_nsd,2023.2.3,59.944038284407284,2024-03-13 15h54.55.682454 -0400,
,,,,,,,,,,,,,,,,,,,282.11933558999954,282.11940110900105,282.11940972400043,282.1240037380012,282.1240037380012,282.3317305490018,space,0.2057358040001418,None,,,,,,,,,,,,,,,,,,,,,,,1,001,2024-03-13_15h54.44.364,replicate_nsd,2023.2.3,59.944038284407284,2024-03-13 15h54.55.682454 -0400,
images/blank.jpg,0,0,1,0,0,0,0,0,0,282.39439506300187,,,,,,,,,,,,,,,,,,282.3720812009997,282.3766916839995,None,282.3771715820003,282.39439506300187,282.39439506300187,286.36253609300184,backspace,3.7994019819998357,None,286.3635940400018,286.36766584200086,291.357212531002,291.3505555970005,,,,,,,,,1,001,2024-03-13_15h54.44.364,replicate_nsd,2023.2.3,59.944038284407284,2024-03-13 15h54.55.682454 -0400,
images/blank.jpg,0,1,1,0,0,0,1,1,1,291.357212531002,,,,,,,,,,,,,,,,,,291.3508049100019,291.353229327,None,291.35333388599975,291.357212531002,291.357212531002,295.33728880200215,s,3.6725992809988384,None,295.3376227289991,295.3420276950019,300.3331479799999,300.3257258550002,,,,,,,,,1,001,2024-03-13_15h54.44.364,replicate_nsd,2023.2.3,59.944038284407284,2024-03-13 15h54.55.682454 -0400,
images/blank.jpg,0,2,1,0,0,0,2,2,2,300.3331479799999,,,,,,,,,,,,,,,,,,300.32604192800136,300.3286019170009,None,300.32875483300086,300.3331479799999,300.3331479799999,304.3133599710018,space,2.9606512390018906,None,304.31358516800174,304.31720740200035,309.3111842500002,309.30248854599995,,,,,,,,,1,001,2024-03-13_15h54.44.364,replicate_nsd,2023.2.3,59.944038284407284,2024-03-13 15h54.55.682454 -0400,
images/11_12.jpg,0,3,0,0,0,0,3,3,3,309.3111842500002,,,,,,,,,,,,,,,,,,309.3028025370004,313.29688807500133,None,313.29710160200193,,,313.2971520889987,None,,,313.29728300900024,313.30190973999925,318.3058109049998,318.2859736319988,309.3111842500002,310.3091195429988,310.3091195429988,313.30190973999925,313.30190973999925,313.30190973999925,,,1,001,2024-03-13_15h54.44.364,replicate_nsd,2023.2.3,59.944038284407284,2024-03-13 15h54.55.682454 -0400,
images/23_12 copy 3.jpg,0,4,0,0,0,0,4,4,4,318.3058109049998,,,,,,,,,,,,,,,,,,318.2862651780015,322.28913605900016,None,322.289338376002,,,322.2893825930005,None,,,322.2895103769988,322.3042955689998,,327.2905347900014,318.3058109049998,319.2847726430009,319.2847726430009,322.2888676879993,322.2888676879993,322.3042955689998,,,1,001,2024-03-13_15h54.44.364,replicate_nsd,2023.2.3,59.944038284407284,2024-03-13 15h54.55.682454 -0400,
images/14_40 copy.jpg,0,5,0,0,0,0,5,5,5,327.29988716799926,,,,,,,,,,,,,,,,,,327.2908649279998,331.28690031800215,None,331.2870143879991,,,331.2870410530013,None,,,331.28712045000066,331.29102593300195,336.28282039999976,336.27596870699927,327.29988716799926,328.3009585079999,328.3009585079999,331.29102593300195,331.29102593300195,331.2867743700008,,,1,001,2024-03-13_15h54.44.364,replicate_nsd,2023.2.3,59.944038284407284,2024-03-13 15h54.55.682454 -0400,
images/12_40 copy 3.jpg,0,6,0,0,0,0,6,6,6,336.28282039999976,,,,,,,,,,,,,,,,,,336.27619413100183,340.26613515400095,None,340.26629005200084,,,340.26631916599945,None,,,340.2664036599999,340.2854214580002,,345.268576409002,336.28282039999976,337.2743964559995,337.2743964559995,340.2854214580002,340.2854214580002,340.2854214580002,,,1,001,2024-03-13_15h54.44.364,replicate_nsd,2023.2.3,59.944038284407284,2024-03-13 15h54.55.682454 -0400,
images/17_40 copy 2.jpg,0,7,0,0,0,0,7,7,7,345.2753642730022,,,,,,,,,,,,,,,,,,345.2687950489999,349.2591143940008,None,349.25926794599945,,,349.25929768300193,None,,,349.25938038800086,349.26373078899996,354.2599405680012,354.2483197340007,345.2753642730022,346.2537330209998,346.2537330209998,349.24135071899946,349.24135071899946,349.26373078899996,,,1,001,2024-03-13_15h54.44.364,replicate_nsd,2023.2.3,59.944038284407284,2024-03-13 15h54.55.682454 -0400,
images/pair09 copy.jpg,0,8,0,0,0,0,8,8,8,354.2599405680012,,,,,,,,,,,,,,,,,,354.24852882599953,358.2463276189992,None,358.2465013330002,,,358.24653828900045,None,,,358.2466436680006,358.25116125800196,363.24440756900003,363.23449882099885,354.2599405680012,355.24943035199976,355.24943035199976,358.23833482600094,358.23833482600094,358.25116125800196,,,1,001,2024-03-13_15h54.44.364,replicate_nsd,2023.2.3,59.944038284407284,2024-03-13 15h54.55.682454 -0400,
images/23_28 copy 3.jpg,0,9,0,0,0,0,9,9,9,363.24440756900003,,,,,,,,,,,,,,,,,,363.23481598700164,367.2283732569995,None,367.22847898500186,,,367.2285001960008,None,,,367.22856114800015,367.2319731610005,372.22297960799915,372.2179904090008,363.24440756900003,364.23429059400223,364.23429059400223,367.22219310500077,367.22219310500077,367.2319731610005,,,1,001,2024-03-13_15h54.44.364,replicate_nsd,2023.2.3,59.944038284407284,2024-03-13 15h54.55.682454 -0400,
images/blank.jpg,0,10,1,0,0,0,10,10,10,372.22297960799915,,,,,,,,,,,,,,,,,,372.21819734499877,372.2196488180016,None,372.21973386100217,372.22297960799915,372.22297960799915,376.20399559200087,o,3.8668344960024115,None,376.2042232900021,376.20788443499987,381.2012375459999,381.1923458700003,,,,,,,,,1,001,2024-03-13_15h54.44.364,replicate_nsd,2023.2.3,59.944038284407284,2024-03-13 15h54.55.682454 -0400,
images/18_0 copy.jpg,0,11,0,0,0,0,11,11,11,381.2012375459999,,,,,,,,,,,,,,,,,,381.19272924500183,385.18744705800054,None,385.18762001199866,,,385.1876609050014,None,,,385.18776245900153,385.19233474499924,390.18366896800217,390.17756683300104,381.2012375459999,382.1925729450013,382.1925729450013,385.1832880559996,385.1832880559996,385.19233474499924,,,1,001,2024-03-13_15h54.44.364,replicate_nsd,2023.2.3,59.944038284407284,2024-03-13 15h54.55.682454 -0400,
images/16_40 copy 2.jpg,0,12,0,0,0,0,12,12,12,390.18366896800217,,,,,,,,,,,,,,,,,,390.17777852699874,394.1691387999999,None,394.16924606700195,,,394.16927053900145,None,,,394.16934215400033,394.1728708869996,399.16379285600124,399.1559140220015,390.18366896800217,391.1754501809992,391.1754501809992,394.16573772300035,394.16573772300035,394.1728708869996,,,1,001,2024-03-13_15h54.44.364,replicate_nsd,2023.2.3,59.944038284407284,2024-03-13 15h54.55.682454 -0400,
images/pair05 copy 4.jpg,0,13,0,0,0,0,13,13,13,399.16379285600124,,,,,,,,,,,,,,,,,,399.1561417560006,403.14756358500017,None,403.1476720270002,,,403.14769692499976,None,,,403.14776841099956,403.1517499469992,408.1424085260005,408.13502304600115,399.16379285600124,400.15831431300103,400.15831431300103,403.1474445900021,403.1474445900021,403.1517499469992,,,1,001,2024-03-13_15h54.44.364,replicate_nsd,2023.2.3,59.944038284407284,2024-03-13 15h54.55.682454 -0400,
images/23_28 copy 3.jpg,0,14,0,0,0,0,14,14,14,408.1424085260005,,,,,,,,,,,,,,,,,,408.13533768699926,412.12705716500204,None,412.12732935900203,,,412.12739497200164,None,,,412.12759712299885,412.1324850710007,417.1227579240003,417.1176521599991,408.1424085260005,409.1359241809987,409.1359241809987,412.12259066499973,412.12259066499973,412.1324850710007,,,1,001,2024-03-13_15h54.44.364,replicate_nsd,2023.2.3,59.944038284407284,2024-03-13 15h54.55.682454 -0400,
images/23_28 copy 3.jpg,0,15,0,0,0,0,15,15,15,417.1227579240003,,,,,,,,,,,,,,,,,,417.117829507999,421.1074013670004,None,421.107573690002,,,421.107609622999,None,,,421.10770998000226,421.1120226189996,426.1040325770009,426.0974469950015,417.1227579240003,418.114200521999,418.114200521999,421.10364010099875,421.10364010099875,421.1120226189996,,,1,001,2024-03-13_15h54.44.364,replicate_nsd,2023.2.3,59.944038284407284,2024-03-13 15h54.55.682454 -0400,
images/20_28 copy 5.jpg,0,16,0,0,0,0,16,16,16,426.1040325770009,,,,,,,,,,,,,,,,,,426.0976678360021,430.090001053999,None,430.09012281000105,,,430.0901510799995,None,,,430.09023453900227,430.09392522800044,435.0889649540004,435.0790855380001,426.1040325770009,427.0980671799989,427.0980671799989,430.0867306680011,430.0867306680011,430.09392522800044,,,1,001,2024-03-13_15h54.44.364,replicate_nsd,2023.2.3,59.944038284407284,2024-03-13 15h54.55.682454 -0400,
images/5_40 copy 5.jpg,0,17,0,0,0,0,17,17,17,435.0889649540004,,,,,,,,,,,,,,,,,,435.0794794430003,439.0752553019993,None,439.0754338879997,,,439.07546950100004,None,,,439.0755747600015,439.0798835220012,444.0694267760009,444.06275766100225,435.0889649540004,436.0812119850016,436.0812119850016,439.0683907780003,439.0683907780003,439.0798835220012,,,1,001,2024-03-13_15h54.44.364,replicate_nsd,2023.2.3,59.944038284407284,2024-03-13 15h54.55.682454 -0400,
images/13_28 copy 5.jpg,0,18,0,0,0,0,18,18,18,444.0694267760009,,,,,,,,,,,,,,,,,,444.0630681370021,448.05406239700096,None,448.0542326040013,,,448.0542678749989,None,,,448.0543707270008,448.05904988399925,453.05188069200085,453.0435984520009,444.0694267760009,445.0641766410008,445.0641766410008,448.0538307860006,448.0538307860006,448.05904988399925,,,1,001,2024-03-13_15h54.44.364,replicate_nsd,2023.2.3,59.944038284407284,2024-03-13 15h54.55.682454 -0400,
images/6_12 copy 2.jpg,0,19,0,0,0,0,19,19,19,453.05188069200085,,,,,,,,,,,,,,,,,,453.0438492050016,457.03770977599925,None,457.0378822519997,,,457.0379187380022,None,,,457.0380228819995,457.04283197100085,462.03405833299985,462.027170338999,453.05188069200085,454.04370532699977,454.04370532699977,457.03055645800123,457.03055645800123,457.04283197100085,,,1,001,2024-03-13_15h54.44.364,replicate_nsd,2023.2.3,59.944038284407284,2024-03-13 15h54.55.682454 -0400,
images/blank.jpg,0,20,1,0,0,0,20,20,20,462.03405833299985,,,,,,,,,,,,,,,,,,462.02748454800167,462.0296490770015,None,462.0297785160001,462.03405833299985,462.03405833299985,466.0129766450009,s,3.6117022580001503,None,466.0133147410015,466.0179620919989,471.01283955100007,471.00427863200093,,,,,,,,,1,001,2024-03-13_15h54.44.364,replicate_nsd,2023.2.3,59.944038284407284,2024-03-13 15h54.55.682454 -0400,
images/14_28 copy 6.jpg,0,21,0,0,0,0,21,21,21,471.01283955100007,,,,,,,,,,,,,,,,,,471.0045946850005,474.99912566200146,None,474.999296345999,,,474.99933594899994,None,,,474.9994372709989,475.0041770880016,479.997542598001,479.9901563300009,471.01283955100007,472.00075219800055,472.00075219800055,474.990848256999,474.990848256999,475.0041770880016,,,1,001,2024-03-13_15h54.44.364,replicate_nsd,2023.2.3,59.944038284407284,2024-03-13 15h54.55.682454 -0400,
images/8_0 copy 6.jpg,0,22,0,0,0,0,22,22,22,479.997542598001,,,,,,,,,,,,,,,,,,479.99044753899943,483.98208016900026,None,483.98225177100176,,,483.9822879839994,None,,,483.9823901669988,483.9870505100007,488.9800663720016,488.97087720499985,479.997542598001,480.9910248349988,480.9910248349988,483.9778593330011,483.9778593330011,483.9870505100007,,,1,001,2024-03-13_15h54.44.364,replicate_nsd,2023.2.3,59.944038284407284,2024-03-13 15h54.55.682454 -0400,
images/24_28 copy 6.jpg,0,23,0,0,0,0,23,23,23,488.9800663720016,,,,,,,,,,,,,,,,,,488.9711598729991,492.9658147070004,None,492.965965708001,,,492.96599905900075,None,,,492.96609930400155,492.9705360459993,497.9626463269997,497.95369154700165,488.9800663720016,489.9730306800011,489.9730306800011,492.9614367940012,492.9614367940012,492.9705360459993,,,1,001,2024-03-13_15h54.44.364,replicate_nsd,2023.2.3,59.944038284407284,2024-03-13 15h54.55.682454 -0400,
images/pair18 copy 4.jpg,0,24,0,0,0,0,24,24,24,497.9626463269997,,,,,,,,,,,,,,,,,,497.95393285200043,501.94703179299904,None,501.9472033400016,,,501.9472391189993,None,,,501.9473411530016,501.9519626660003,506.94582542100034,506.936959603001,497.9626463269997,498.9536240689995,498.9536240689995,501.942912161001,501.942912161001,501.9519626660003,,,1,001,2024-03-13_15h54.44.364,replicate_nsd,2023.2.3,59.944038284407284,2024-03-13 15h54.55.682454 -0400,
images/pair15 copy 2.jpg,0,25,0,0,0,0,25,25,25,506.94582542100034,,,,,,,,,,,,,,,,,,506.9372462399988,510.9346556470009,None,510.9348260200022,,,510.93486080300136,None,,,510.9349592660001,510.95206382000106,,515.9366437140015,506.94582542100034,507.9360678260018,507.9360678260018,510.93441465700016,510.93441465700016,510.95206382000106,,,1,001,2024-03-13_15h54.44.364,replicate_nsd,2023.2.3,59.944038284407284,2024-03-13 15h54.55.682454 -0400,
images/pair08 copy.jpg,0,26,0,0,0,0,26,26,26,515.9461515820003,,,,,,,,,,,,,,,,,,515.9369782479989,519.9321179380022,None,519.9322473770007,,,519.9322762400006,None,,,519.9323594580019,519.9359821850012,524.92737261,524.9195717580005,515.9461515820003,516.9237819570008,516.9237819570008,519.9123202029987,519.9123202029987,519.9359821850012,,,1,001,2024-03-13_15h54.44.364,replicate_nsd,2023.2.3,59.944038284407284,2024-03-13 15h54.55.682454 -0400,
images/16_40 copy 2.jpg,0,27,0,0,0,0,27,27,27,524.92737261,,,,,,,,,,,,,,,,,,524.9198885219994,528.9123423359997,None,528.9124631359991,,,528.9124917150002,None,,,528.9125737079994,528.9163080770013,533.9072956330019,533.9012195120013,524.92737261,525.9206011650022,525.9206011650022,528.9089837700012,528.9089837700012,528.9163080770013,,,1,001,2024-03-13_15h54.44.364,replicate_nsd,2023.2.3,59.944038284407284,2024-03-13 15h54.55.682454 -0400,
images/21_40 copy 2.jpg,0,28,0,0,0,0,28,28,28,533.9072956330019,,,,,,,,,,,,,,,,,,533.901411324001,537.900854669002,None,537.901022086,,,537.9010576280016,None,,,537.9011613780021,537.9166825840002,,542.9025440840014,533.9072956330019,534.9012795689996,534.9012795689996,537.9006328460018,537.9006328460018,537.9166825840002,,,1,001,2024-03-13_15h54.44.364,replicate_nsd,2023.2.3,59.944038284407284,2024-03-13 15h54.55.682454 -0400,
images/pair01 copy 4.jpg,0,29,0,0,0,0,29,29,29,542.9107741770022,,,,,,,,,,,,,,,,,,542.9027932130011,546.8950192060001,None,546.8953255289998,,,546.8953958330021,None,,,546.895629057999,546.900781659002,551.8926657480006,551.8868112300006,542.9107741770022,543.891059395999,543.891059395999,546.8827622569988,546.8827622569988,546.900781659002,,,1,001,2024-03-13_15h54.44.364,replicate_nsd,2023.2.3,59.944038284407284,2024-03-13 15h54.55.682454 -0400,
images/blank.jpg,0,30,1,0,0,0,30,30,30,551.8926657480006,,,,,,,,,,,,,,,,,,551.8870189789995,551.8888025870001,None,551.8888877050013,551.8926657480006,551.8926657480006,555.8746138339993,None,,,555.8747129360017,555.8786010309996,560.8740417529989,560.8661206620018,,,,,,,,,1,001,2024-03-13_15h54.44.364,replicate_nsd,2023.2.3,59.944038284407284,2024-03-13 15h54.55.682454 -0400,
images/21_28.jpg,0,31,0,0,0,0,31,31,31,560.8740417529989,,,,,,,,,,,,,,,,,,560.8664510310009,564.8576169619992,None,564.8577272120019,,,564.8577613330017,None,,,564.8578350390017,564.8616052840007,569.8544526850019,569.8480024009987,560.8740417529989,561.8620167879999,561.8620167879999,564.8513236020008,564.8513236020008,564.8616052840007,,,1,001,2024-03-13_15h54.44.364,replicate_nsd,2023.2.3,59.944038284407284,2024-03-13 15h54.55.682454 -0400,
images/pair05 copy 7.jpg,0,32,0,0,0,0,32,32,32,569.8544526850019,,,,,,,,,,,,,,,,,,569.8481793069986,573.8496254710008,None,573.8498319440005,,,573.8498764290016,None,,,573.8500036080004,573.8549705229998,578.8502081180013,578.8411184780016,569.8544526850019,570.8645133739992,570.8645133739992,573.8549705229998,573.8549705229998,573.8413403470004,,,1,001,2024-03-13_15h54.44.364,replicate_nsd,2023.2.3,59.944038284407284,2024-03-13 15h54.55.682454 -0400,
images/20_40 copy.jpg,0,33,0,0,0,0,33,33,33,578.8502081180013,,,,,,,,,,,,,,,,,,578.8414387209996,582.8358626510017,None,582.8359562629994,,,582.8359768890004,None,,,582.836036105,582.8395780390019,587.831214845999,587.8248013420016,578.8502081180013,579.8401873020011,579.8401873020011,582.8296719329992,582.8296719329992,582.8395780390019,,,1,001,2024-03-13_15h54.44.364,replicate_nsd,2023.2.3,59.944038284407284,2024-03-13 15h54.55.682454 -0400,
images/16_12 copy 2.jpg,0,34,0,0,0,0,34,34,34,587.831214845999,,,,,,,,,,,,,,,,,,587.825000443001,591.8150270090009,None,591.8151993690008,,,591.8152356339997,None,,,591.8153387720013,591.8199449950007,596.8142707340012,596.8050218120006,587.831214845999,588.8233778590002,588.8233778590002,591.810732173999,591.810732173999,591.8199449950007,,,1,001,2024-03-13_15h54.44.364,replicate_nsd,2023.2.3,59.944038284407284,2024-03-13 15h54.55.682454 -0400,
images/11_0 copy 6.jpg,0,35,0,0,0,0,35,35,35,596.8142707340012,,,,,,,,,,,,,,,,,,596.8054021349999,600.7977553109995,None,600.7979041780018,,,600.7979383579986,None,,,600.7980406019997,600.8025505969999,605.7960939330005,605.788047566999,596.8142707340012,597.8031532710011,597.8031532710011,600.7937566360015,600.7937566360015,600.8025505969999,,,1,001,2024-03-13_15h54.44.364,replicate_nsd,2023.2.3,59.944038284407284,2024-03-13 15h54.55.682454 -0400,
images/11_0 copy.jpg,0,36,0,0,0,0,36,36,36,605.7960939330005,,,,,,,,,,,,,,,,,,605.7883626799994,609.7831019520017,None,609.7833072969988,,,609.7833506880015,None,,,609.783478841,609.7881414450021,614.7773484339996,614.7712735360001,605.7960939330005,606.7860433880014,606.7860433880014,609.7740610479996,609.7740610479996,609.7881414450021,,,1,001,2024-03-13_15h54.44.364,replicate_nsd,2023.2.3,59.944038284407284,2024-03-13 15h54.55.682454 -0400,
images/10_0 copy.jpg,0,37,0,0,0,0,37,37,37,614.7773484339996,,,,,,,,,,,,,,,,,,614.7714792369989,618.7608397479999,None,618.7609522780003,,,618.7609775359997,None,,,618.7610495289991,618.7645329510015,623.7612505069992,623.7520441209999,614.7773484339996,615.7712009390016,615.7712009390016,618.7576419040015,618.7576419040015,618.7645329510015,,,1,001,2024-03-13_15h54.44.364,replicate_nsd,2023.2.3,59.944038284407284,2024-03-13 15h54.55.682454 -0400,
images/pair09 copy.jpg,0,38,0,0,0,0,38,38,38,623.7612505069992,,,,,,,,,,,,,,,,,,623.7523590990022,627.747170052,None,627.7473141609989,,,627.7473486070012,None,,,627.7474480109995,627.7516739009989,632.743453002,632.7372322070005,623.7612505069992,624.7497547300009,624.7497547300009,627.7371793349994,627.7371793349994,627.7516739009989,,,1,001,2024-03-13_15h54.44.364,replicate_nsd,2023.2.3,59.944038284407284,2024-03-13 15h54.55.682454 -0400,
images/18_12 copy 3.jpg,0,39,0,0,0,0,39,39,39,632.743453002,,,,,,,,,,,,,,,,,,632.7374484110005,636.7292736970012,None,636.7293862469996,,,636.7294105530018,None,,,636.7294806159989,636.733535547999,641.7294191420006,641.7212278229999,632.743453002,633.7346908079999,633.7346908079999,636.7229445020021,636.7229445020021,636.733535547999,,,1,001,2024-03-13_15h54.44.364,replicate_nsd,2023.2.3,59.944038284407284,2024-03-13 15h54.55.682454 -0400,
images/blank.jpg,0,40,1,0,0,0,40,40,40,641.7294191420006,,,,,,,,,,,,,,,,,,641.721612354002,641.7251764700013,None,641.7253283009995,641.7294191420006,641.7294191420006,645.7109004840022,None,,,645.7110222720003,645.7146511409992,650.7058586989988,650.7000448639992,,,,,,,,,1,001,2024-03-13_15h54.44.364,replicate_nsd,2023.2.3,59.944038284407284,2024-03-13 15h54.55.682454 -0400,
images/15_40 copy.jpg,0,41,0,0,0,0,41,41,41,650.7058586989988,,,,,,,,,,,,,,,,,,650.7002561930021,654.6908975299993,None,654.6910064959993,,,654.6910316719986,None,,,654.6911036509991,654.6946046049998,659.6869706639991,659.6788654570009,650.7058586989988,651.7009843199994,651.7009843199994,654.687714513002,654.687714513002,654.6946046049998,,,1,001,2024-03-13_15h54.44.364,replicate_nsd,2023.2.3,59.944038284407284,2024-03-13 15h54.55.682454 -0400,
images/17_40 copy 5.jpg,0,42,0,0,0,0,42,42,42,659.6869706639991,,,,,,,,,,,,,,,,,,659.6791569160014,663.6709723919994,None,663.671090652002,,,663.6711163340005,None,,,663.6711870850013,663.6747458940008,668.6680275200015,668.660271187,659.6869706639991,660.6811311009988,660.6811311009988,663.670820198,663.670820198,663.6747458940008,,,1,001,2024-03-13_15h54.44.364,replicate_nsd,2023.2.3,59.944038284407284,2024-03-13 15h54.55.682454 -0400,
images/13_28 copy 7.jpg,0,43,0,0,0,0,43,43,43,668.6680275200015,,,,,,,,,,,,,,,,,,668.6605347770019,672.65236448,None,672.6525211469998,,,672.652551217001,None,,,672.6526515120022,672.656456828001,677.6483347360008,677.6412061430019,668.6680275200015,669.6600764540017,669.6600764540017,672.6486141610003,672.6486141610003,672.656456828001,,,1,001,2024-03-13_15h54.44.364,replicate_nsd,2023.2.3,59.944038284407284,2024-03-13 15h54.55.682454 -0400,
images/pair11 copy 4.jpg,0,44,0,0,0,0,44,44,44,677.6483347360008,,,,,,,,,,,,,,,,,,677.6413846040014,681.6336037789988,None,681.6338201979997,,,681.6338685869996,None,,,681.6340079180009,681.6389260159995,686.6329076959992,686.6229826460003,677.6483347360008,678.6420166989992,678.6420166989992,681.6333269240022,681.6333269240022,681.6389260159995,,,1,001,2024-03-13_15h54.44.364,replicate_nsd,2023.2.3,59.944038284407284,2024-03-13 15h54.55.682454 -0400,
images/14_28 copy 4.jpg,0,45,0,0,0,0,45,45,45,686.6329076959992,,,,,,,,,,,,,,,,,,686.6233708319996,690.6179567139989,None,690.6181296940013,,,690.6181656080007,None,,,690.6182670099988,690.6229197430002,695.6162405700015,695.6073623609991,686.6329076959992,687.623061827002,687.623061827002,690.613210071002,690.613210071002,690.6229197430002,,,1,001,2024-03-13_15h54.44.364,replicate_nsd,2023.2.3,59.944038284407284,2024-03-13 15h54.55.682454 -0400,
images/23_28 copy 6.jpg,0,46,0,0,0,0,46,46,46,695.6162405700015,,,,,,,,,,,,,,,,,,695.6076768249986,699.6011249139992,None,699.601272423999,,,699.6013063200007,None,,,699.6014075150015,699.6054697440013,704.6009831859992,704.5921634580009,695.6162405700015,696.6099025139993,696.6099025139993,699.6009610770016,699.6009610770016,699.6054697440013,,,1,001,2024-03-13_15h54.44.364,replicate_nsd,2023.2.3,59.944038284407284,2024-03-13 15h54.55.682454 -0400,
images/19_28 copy 5.jpg,0,47,0,0,0,0,47,47,47,704.6009831859992,,,,,,,,,,,,,,,,,,704.5924785300012,708.5861344360019,None,708.5864648930001,,,708.5865092739987,None,,,708.5866398760008,708.5908256479997,713.5847408689988,713.575793799002,704.6009831859992,705.5915302220019,705.5915302220019,708.5782447480015,708.5782447480015,708.5908256479997,,,1,001,2024-03-13_15h54.44.364,replicate_nsd,2023.2.3,59.944038284407284,2024-03-13 15h54.55.682454 -0400,
images/pair04.jpg,0,48,0,0,0,0,48,48,48,713.5847408689988,,,,,,,,,,,,,,,,,,713.5760806790022,717.5699505039993,None,717.5701223319993,,,717.5701583930022,None,,,717.5702624549995,717.5749723539993,722.5713383360016,722.5607860300006,713.5847408689988,714.5742493910002,714.5742493910002,717.5616989369992,717.5616989369992,717.5749723539993,,,1,001,2024-03-13_15h54.44.364,replicate_nsd,2023.2.3,59.944038284407284,2024-03-13 15h54.55.682454 -0400,
images/pair18 copy 4.jpg,0,49,0,0,0,0,49,49,49,722.5713383360016,,,,,,,,,,,,,,,,,,722.5611789600007,726.5547427400015,None,726.5549160560004,,,726.5549521270004,None,,,726.555052816002,726.5598553199998,731.5515917890007,731.5453297940003,722.5713383360016,723.5590872270004,723.5590872270004,726.5461052130013,726.5461052130013,726.5598553199998,,,1,001,2024-03-13_15h54.44.364,replicate_nsd,2023.2.3,59.944038284407284,2024-03-13 15h54.55.682454 -0400,
images/blank.jpg,0,50,1,0,0,0,50,50,50,731.5515917890007,,,,,,,,,,,,,,,,,,731.5455422480009,731.5480842139987,None,731.5481738740018,731.5515917890007,731.5515917890007,735.5337900220002,None,,,735.5339782939991,735.5388164079995,740.5301899939986,740.5234657789988,,,,,,,,,1,001,2024-03-13_15h54.44.364,replicate_nsd,2023.2.3,59.944038284407284,2024-03-13 15h54.55.682454 -0400,
images/13_0 copy 3.jpg,0,51,0,0,0,0,51,51,51,740.5301899939986,,,,,,,,,,,,,,,,,,740.5236674090011,744.5143439960011,None,744.5145506299996,,,744.5145962079987,None,,,744.514722939999,744.5197064919994,749.5097187749998,749.503292207999,740.5301899939986,741.5230253779991,741.5230253779991,744.5098055050003,744.5098055050003,744.5197064919994,,,1,001,2024-03-13_15h54.44.364,replicate_nsd,2023.2.3,59.944038284407284,2024-03-13 15h54.55.682454 -0400,
images/5_28 copy 7.jpg,0,52,0,0,0,0,52,52,52,749.5097187749998,,,,,,,,,,,,,,,,,,749.5034944139989,753.4955049170021,None,753.4956742300019,,,753.495710561001,None,,,753.4958139779992,753.5001684090021,758.4958279300008,758.4873479140006,749.5097187749998,750.5040818820016,750.5040818820016,753.4952816940022,753.4952816940022,753.5001684090021,,,1,001,2024-03-13_15h54.44.364,replicate_nsd,2023.2.3,59.944038284407284,2024-03-13 15h54.55.682454 -0400,
images/pair05 copy 4.jpg,0,53,0,0,0,0,53,53,53,758.4958279300008,,,,,,,,,,,,,,,,,,758.4875927840003,762.4792290110017,None,762.479353433002,,,762.4793815590019,None,,,762.4794640460022,762.483512122999,767.4760801670018,767.4664578880001,758.4958279300008,759.4834737160018,759.4834737160018,762.4726711610019,762.4726711610019,762.483512122999,,,1,001,2024-03-13_15h54.44.364,replicate_nsd,2023.2.3,59.944038284407284,2024-03-13 15h54.55.682454 -0400,
images/20_28 copy 5.jpg,0,54,0,0,0,0,54,54,54,767.4760801670018,,,,,,,,,,,,,,,,,,767.4667745430015,771.4596836119999,None,771.4598194550017,,,771.4598501719993,None,,,771.4599357680017,771.4640486220014,776.4600408020015,776.4490890090019,767.4760801670018,768.4718850860008,768.4718850860008,771.4594899399999,771.4594899399999,771.4640486220014,,,1,001,2024-03-13_15h54.44.364,replicate_nsd,2023.2.3,59.944038284407284,2024-03-13 15h54.55.682454 -0400,
images/pair08 copy 3.jpg,0,55,0,0,0,0,55,55,55,776.4600408020015,,,,,,,,,,,,,,,,,,776.4494083729987,780.4444228960019,None,780.4445959430013,,,780.4446330479986,None,,,780.4447361669991,780.4491982260006,785.4413772949993,785.4352343560022,776.4600408020015,777.4476488260007,777.4476488260007,780.4363625600017,780.4363625600017,780.4491982260006,,,1,001,2024-03-13_15h54.44.364,replicate_nsd,2023.2.3,59.944038284407284,2024-03-13 15h54.55.682454 -0400,
images/17_40 copy 5.jpg,0,56,0,0,0,0,56,56,56,785.4413772949993,,,,,,,,,,,,,,,,,,785.4354692369998,789.4275264600001,None,789.4277409429997,,,789.4277874130021,None,,,789.4279186749991,789.4327939739997,794.4292688669993,794.420221512999,785.4413772949993,786.4355580100018,786.4355580100018,789.4272579019998,789.4272579019998,789.4327939739997,,,1,001,2024-03-13_15h54.44.364,replicate_nsd,2023.2.3,59.944038284407284,2024-03-13 15h54.55.682454 -0400,
images/24_0.jpg,0,57,0,0,0,0,57,57,57,794.4292688669993,,,,,,,,,,,,,,,,,,794.420536976002,798.4138186960008,None,798.4139917020002,,,798.4140275300015,None,,,798.4141291180022,798.4188553919994,803.4131076330013,803.4041534710013,794.4292688669993,795.4170280110011,795.4170280110011,798.4054445080001,798.4054445080001,798.4188553919994,,,1,001,2024-03-13_15h54.44.364,replicate_nsd,2023.2.3,59.944038284407284,2024-03-13 15h54.55.682454 -0400,
images/10_28.jpg,0,58,0,0,0,0,58,58,58,803.4131076330013,,,,,,,,,,,,,,,,,,803.4044695129996,807.396598588999,None,807.3967674220003,,,807.3968034610007,None,,,807.3969062830001,807.4011415970017,812.3902875380008,812.3850062370002,803.4131076330013,804.4045515380021,804.4045515380021,807.3924367629988,807.3924367629988,807.4011415970017,,,1,001,2024-03-13_15h54.44.364,replicate_nsd,2023.2.3,59.944038284407284,2024-03-13 15h54.55.682454 -0400,
images/14_28 copy 3.jpg,0,59,0,0,0,0,59,59,59,812.3902875380008,,,,,,,,,,,,,,,,,,812.3852087580017,816.3744071040019,None,816.3745514530019,,,816.3745806180013,None,,,816.3746628640001,816.3789493010008,821.3702226220012,821.3633066170005,812.3902875380008,813.3850761260001,813.3850761260001,816.3742185369993,816.3742185369993,816.3789493010008,,,1,001,2024-03-13_15h54.44.364,replicate_nsd,2023.2.3,59.944038284407284,2024-03-13 15h54.55.682454 -0400,
images/blank.jpg,0,60,1,0,0,0,60,60,60,821.3702226220012,,,,,,,,,,,,,,,,,,821.3636202730013,821.3659087330016,None,821.3660623649994,821.3702226220012,821.3702226220012,825.3491966539987,None,,,825.3494067060019,825.3541763510002,830.346092718999,830.3380628650011,,,,,,,,,1,001,2024-03-13_15h54.44.364,replicate_nsd,2023.2.3,59.944038284407284,2024-03-13 15h54.55.682454 -0400,
images/15_40 copy 5.jpg,0,61,0,0,0,0,61,61,61,830.346092718999,,,,,,,,,,,,,,,,,,830.3383758650016,834.3298034559994,None,834.3299063400009,,,834.329930251999,None,,,834.3299995630005,834.3335741129995,839.3291214109995,839.320261072,830.346092718999,831.3369991420004,831.3369991420004,834.326028118001,834.326028118001,834.3335741129995,,,1,001,2024-03-13_15h54.44.364,replicate_nsd,2023.2.3,59.944038284407284,2024-03-13 15h54.55.682454 -0400,
images/5_12 copy 3.jpg,0,62,0,0,0,0,62,62,62,839.3291214109995,,,,,,,,,,,,,,,,,,839.320578324001,843.3160706750023,None,843.3162428979995,,,843.3162787910005,None,,,843.3163813239989,843.3210331070004,848.3190658240019,848.3082024060022,839.3291214109995,840.3210897270001,840.3210897270001,843.311818438,843.311818438,843.3210331070004,,,1,001,2024-03-13_15h54.44.364,replicate_nsd,2023.2.3,59.944038284407284,2024-03-13 15h54.55.682454 -0400,
images/pair08 copy 6.jpg,0,63,0,0,0,0,63,63,63,848.3190658240019,,,,,,,,,,,,,,,,,,848.3085874429999,852.3022604100006,None,852.3024331170018,,,852.302469737002,None,,,852.3025724370018,852.3071007309991,857.2999040089999,857.2905138349997,848.3190658240019,849.3065518289986,849.3065518289986,852.2978260950003,852.2978260950003,852.3071007309991,,,1,001,2024-03-13_15h54.44.364,replicate_nsd,2023.2.3,59.944038284407284,2024-03-13 15h54.55.682454 -0400,
images/pair09.jpg,0,64,0,0,0,0,64,64,64,857.2999040089999,,,,,,,,,,,,,,,,,,857.2908334940003,861.2861785890018,None,861.2863505409987,,,861.2863869130015,None,,,861.2864892750003,861.2910553799993,866.284172120002,866.2750136110008,857.2999040089999,858.2920865310007,858.2920865310007,861.2820278770014,861.2820278770014,861.2910553799993,,,1,001,2024-03-13_15h54.44.364,replicate_nsd,2023.2.3,59.944038284407284,2024-03-13 15h54.55.682454 -0400,
images/pair05 copy 7.jpg,0,65,0,0,0,0,65,65,65,866.284172120002,,,,,,,,,,,,,,,,,,866.2753291789995,870.2693565469999,None,870.2695616400015,,,870.2696068789992,None,,,870.2697352579999,870.2748882910018,875.2683075770001,875.2589645570006,866.284172120002,867.2751318769988,867.2751318769988,870.2648757230018,870.2648757230018,870.2748882910018,,,1,001,2024-03-13_15h54.44.364,replicate_nsd,2023.2.3,59.944038284407284,2024-03-13 15h54.55.682454 -0400,
images/10_0 copy 3.jpg,0,66,0,0,0,0,66,66,66,875.2683075770001,,,,,,,,,,,,,,,,,,875.25934375,879.2548165650005,None,879.2549871750016,,,879.255022657002,None,,,879.2551251160003,879.2597891309997,884.2540503759992,884.2450648769991,875.2683075770001,876.2589898730002,876.2589898730002,879.2461138020008,879.2461138020008,879.2597891309997,,,1,001,2024-03-13_15h54.44.364,replicate_nsd,2023.2.3,59.944038284407284,2024-03-13 15h54.55.682454 -0400,
images/14_28 copy 6.jpg,0,67,0,0,0,0,67,67,67,884.2540503759992,,,,,,,,,,,,,,,,,,884.2453795450019,888.2410939789988,None,888.2412635500004,,,888.2412988540018,None,,,888.2414004099992,888.2460442560005,893.2402166569991,893.2312116419998,884.2540503759992,885.245078068001,885.245078068001,888.2363549869988,888.2363549869988,888.2460442560005,,,1,001,2024-03-13_15h54.44.364,replicate_nsd,2023.2.3,59.944038284407284,2024-03-13 15h54.55.682454 -0400,
images/16_12 copy 2.jpg,0,68,0,0,0,0,68,68,68,893.2402166569991,,,,,,,,,,,,,,,,,,893.2315287870006,897.2251653359999,None,897.2253360760005,,,897.225371515,None,,,897.2254744220008,897.2301428850005,902.225021749,902.2153521969994,893.2402166569991,894.2310526360016,894.2310526360016,897.2209903920011,897.2209903920011,897.2301428850005,,,1,001,2024-03-13_15h54.44.364,replicate_nsd,2023.2.3,59.944038284407284,2024-03-13 15h54.55.682454 -0400,
images/9_0 copy 7.jpg,0,69,0,0,0,0,69,69,69,902.225021749,,,,,,,,,,,,,,,,,,902.2157366259999,906.2081700050003,None,906.2083412069987,,,906.2083769519995,None,,,906.208479830002,906.213101567002,911.2060164130016,911.1984839760007,902.225021749,903.2140129219988,903.2140129219988,906.2040551669998,906.2040551669998,906.213101567002,,,1,001,2024-03-13_15h54.44.364,replicate_nsd,2023.2.3,59.944038284407284,2024-03-13 15h54.55.682454 -0400,
images/21_0 copy 6.jpg,0,70,0,0,0,0,70,70,70,911.2060164130016,,,,,,,,,,,,,,,,,,911.1987477520015,915.1910966319992,None,915.1912694120001,,,915.191304385,None,,,915.1914063350014,915.1959969480013,920.1860675440003,920.1793210989999,911.2060164130016,912.1977973700014,912.1977973700014,915.186333935002,915.186333935002,915.1959969480013,,,1,001,2024-03-13_15h54.44.364,replicate_nsd,2023.2.3,59.944038284407284,2024-03-13 15h54.55.682454 -0400,
images/blank.jpg,0,71,1,0,0,0,71,71,71,920.1860675440003,,,,,,,,,,,,,,,,,,920.1796147669993,920.1817141530009,None,920.1818375309995,920.1860675440003,920.1860675440003,924.1671958879997,None,,,924.1673710249997,924.1718407590015,929.1643503759988,929.1564193220001,,,,,,,,,1,001,2024-03-13_15h54.44.364,replicate_nsd,2023.2.3,59.944038284407284,2024-03-13 15h54.55.682454 -0400,
images/blank.jpg,0,72,1,0,0,0,72,72,72,929.1643503759988,,,,,,,,,,,,,,,,,,929.1569931939994,929.1597433829993,None,929.1599730490016,929.1643503759988,929.1643503759988,933.1458105909987,None,,,933.1459860089999,933.1504113750016,938.1424023130021,938.1350741700007,,,,,,,,,1,001,2024-03-13_15h54.44.364,replicate_nsd,2023.2.3,59.944038284407284,2024-03-13 15h54.55.682454 -0400,
images/blank.jpg,0,73,1,0,0,0,73,73,73,938.1424023130021,,,,,,,,,,,,,,,,,,938.1353903769996,938.1379711480004,None,938.1381584779992,938.1424023130021,938.1424023130021,942.1231751189989,None,,,942.1233495220004,942.1280231980018,947.1211866140002,947.1141549410022,,,,,,,,,1,001,2024-03-13_15h54.44.364,replicate_nsd,2023.2.3,59.944038284407284,2024-03-13 15h54.55.682454 -0400,
images/blank.jpg,0,74,1,1,0,0,74,74,74,947.1211866140002,,,,,,,,,,,,,,,,,,947.1144694870018,947.1166264710009,None,947.116784697002,947.1211866140002,947.1211866140002,951.1032384499995,None,,,951.1034135180016,,,951.1034507330005,,,,,,,,,1,001,2024-03-13_15h54.44.364,replicate_nsd,2023.2.3,59.944038284407284,2024-03-13 15h54.55.682454 -0400,
images/blank.jpg,0,0,1,0,1,0,75,75,75,951.1101330349993,,,,,,,,,,,,,,,,,,951.1036982170008,951.1059762530022,None,951.106129636999,951.1101330349993,951.1101330349993,955.0924034189993,None,,,955.0925782510021,955.0972988940011,960.0905679269999,960.0830899050015,,,,,,,,,1,001,2024-03-13_15h54.44.364,replicate_nsd,2023.2.3,59.944038284407284,2024-03-13 15h54.55.682454 -0400,
images/blank.jpg,0,1,1,0,1,0,76,76,76,960.0905679269999,,,,,,,,,,,,,,,,,,960.0834068730001,960.086015961002,None,960.0862017830004,960.0905679269999,960.0905679269999,964.070374531002,None,,,964.0705506170016,964.0751878590017,969.0674178570007,969.0597221159987,,,,,,,,,1,001,2024-03-13_15h54.44.364,replicate_nsd,2023.2.3,59.944038284407284,2024-03-13 15h54.55.682454 -0400,
images/blank.jpg,0,2,1,0,1,0,77,77,77,969.0674178570007,,,,,,,,,,,,,,,,,,969.0601106870017,969.0628744109999,None,969.0630575089999,969.0674178570007,969.0674178570007,973.049486210999,None,,,973.0496616919991,973.0542601220004,978.049357893,978.0383771560009,,,,,,,,,1,001,2024-03-13_15h54.44.364,replicate_nsd,2023.2.3,59.944038284407284,2024-03-13 15h54.55.682454 -0400,
images/pair14.jpg,0,3,0,0,1,0,78,78,78,978.049357893,,,,,,,,,,,,,,,,,,978.0386942940022,982.032354990999,None,982.0325608769999,,,982.032606544999,None,,,982.0327345289988,982.0373315559991,987.0332014740015,987.024298837001,978.049357893,979.0402779860015,979.0402779860015,982.0275952400007,982.0275952400007,982.0373315559991,,,1,001,2024-03-13_15h54.44.364,replicate_nsd,2023.2.3,59.944038284407284,2024-03-13 15h54.55.682454 -0400,
images/10_28 copy 7.jpg,0,4,0,0,1,0,79,79,79,987.0332014740015,,,,,,,,,,,,,,,,,,987.0246135109992,991.0174443350006,None,991.0176159170005,,,991.017650963,None,,,991.0177529270004,991.0222221350014,996.0172666420003,996.0090391480007,987.0332014740015,988.0222114520002,988.0222114520002,991.009400449002,991.009400449002,991.0222221350014,,,1,001,2024-03-13_15h54.44.364,replicate_nsd,2023.2.3,59.944038284407284,2024-03-13 15h54.55.682454 -0400,
images/11_40 copy 6.jpg,0,5,0,0,1,0,80,80,80,996.0172666420003,,,,,,,,,,,,,,,,,,996.0093659810009,1000.000870844,None,1000.0010192859991,,,1000.001054332999,None,,,1000.0011620959995,1000.0053560870001,1004.9991988559996,1004.990676657002,996.0172666420003,997.0055236469998,997.0055236469998,999.9934019430002,999.9934019430002,1000.0053560870001,,,1,001,2024-03-13_15h54.44.364,replicate_nsd,2023.2.3,59.944038284407284,2024-03-13 15h54.55.682454 -0400,
images/23_40 copy 6.jpg,0,6,0,0,1,0,81,81,81,1004.9991988559996,,,,,,,,,,,,,,,,,,1004.990989236001,1008.9826151039997,None,1008.9827857070013,,,1008.9828213729998,None,,,1008.9829215659993,1008.9873330350019,1013.9816855860008,1013.9733256250001,1004.9991988559996,1005.9908912399987,1005.9908912399987,1008.9823921620009,1008.9823921620009,1008.9873330350019,,,1,001,2024-03-13_15h54.44.364,replicate_nsd,2023.2.3,59.944038284407284,2024-03-13 15h54.55.682454 -0400,
images/11_28 copy 4.jpg,0,7,0,0,1,0,82,82,82,1013.9816855860008,,,,,,,,,,,,,,,,,,1013.973662802,1017.9655435150016,None,1017.9657510549987,,,1017.9657954169998,None,,,1017.9659281640015,1017.9710833620011,1022.9645890310021,1022.956007347002,1013.9816855860008,1014.9722161480022,1014.9722161480022,1017.9605568610023,1017.9605568610023,1017.9710833620011,,,1,001,2024-03-13_15h54.44.364,replicate_nsd,2023.2.3,59.944038284407284,2024-03-13 15h54.55.682454 -0400,
images/15_12 copy 6.jpg,0,8,0,0,1,0,83,83,83,1022.9645890310021,,,,,,,,,,,,,,,,,,1022.9563192899986,1026.9501354000022,None,1026.9503056649992,,,1026.9503407180018,None,,,1026.9504415519987,1026.9550988779993,1031.9483518839988,1031.9394712649992,1022.9645890310021,1023.9549876560013,1023.9549876560013,1026.9454560340018,1026.9454560340018,1026.9550988779993,,,1,001,2024-03-13_15h54.44.364,replicate_nsd,2023.2.3,59.944038284407284,2024-03-13 15h54.55.682454 -0400,
images/12_28 copy 4.jpg,0,9,0,0,1,0,84,84,84,1031.9483518839988,,,,,,,,,,,,,,,,,,1031.9397851850008,1035.933371269999,None,1035.933543733001,,,1035.9335793749997,None,,,1035.9336809769993,1035.9382510140022,1040.9326623000015,1040.9254644720022,1031.9483518839988,1032.939269573999,1032.939269573999,1035.9291411740014,1035.9291411740014,1035.9382510140022,,,1,001,2024-03-13_15h54.44.364,replicate_nsd,2023.2.3,59.944038284407284,2024-03-13 15h54.55.682454 -0400,
images/blank.jpg,0,10,1,0,1,0,85,85,85,1040.9326623000015,,,,,,,,,,,,,,,,,,1040.9257813629993,1040.9282524660011,None,1040.9284384700004,1040.9326623000015,1040.9326623000015,1044.9114461280005,None,,,1044.9116203500016,1044.9162134860017,1049.9114298700006,1049.9025632289995,,,,,,,,,1,001,2024-03-13_15h54.44.364,replicate_nsd,2023.2.3,59.944038284407284,2024-03-13 15h54.55.682454 -0400,
images/21_40 copy 5.jpg,0,11,0,0,1,0,86,86,86,1049.9114298700006,,,,,,,,,,,,,,,,,,1049.9028800910019,1053.8948509250004,None,1053.8950217050005,,,1053.895058293001,None,,,1053.895161602999,1053.8995322090013,1058.892360386002,1058.8832862060008,1049.9114298700006,1050.9028530940013,1050.9028530940013,1053.8906520090022,1053.8906520090022,1053.8995322090013,,,1,001,2024-03-13_15h54.44.364,replicate_nsd,2023.2.3,59.944038284407284,2024-03-13 15h54.55.682454 -0400,
images/6_40 copy 6.jpg,0,12,0,0,1,0,87,87,87,1058.892360386002,,,,,,,,,,,,,,,,,,1058.883602869002,1062.8782481509988,None,1062.8784210090016,,,1062.8784568289993,None,,,1062.8785580069998,1062.8829576630014,1067.877995922001,1067.8690909710022,1058.892360386002,1059.886298966001,1059.886298966001,1062.8741123159998,1062.8741123159998,1062.8829576630014,,,1,001,2024-03-13_15h54.44.364,replicate_nsd,2023.2.3,59.944038284407284,2024-03-13 15h54.55.682454 -0400,
images/20_28 copy 4.jpg,0,13,0,0,1,0,88,88,88,1067.877995922001,,,,,,,,,,,,,,,,,,1067.8693788679993,1071.8636252329998,None,1071.8637957600004,,,1071.8638316549986,None,,,1071.863933716002,1071.8683815990007,1076.8637071049998,1076.8554484609995,1067.877995922001,1068.8704331459994,1068.8704331459994,1071.8594355560017,1071.8594355560017,1071.8683815990007,,,1,001,2024-03-13_15h54.44.364,replicate_nsd,2023.2.3,59.944038284407284,2024-03-13 15h54.55.682454 -0400,
images/14_12 copy 6.jpg,0,14,0,0,1,0,89,89,89,1076.8637071049998,,,,,,,,,,,,,,,,,,1076.8557661359991,1080.8473381969998,None,1080.8475455000007,,,1080.8475896029995,None,,,1080.8477168770005,1080.8524641660006,1085.8473584380008,1085.8392963840015,1076.8637071049998,1077.8523407409994,1077.8523407409994,1080.843082159001,1080.843082159001,1080.8524641660006,,,1,001,2024-03-13_15h54.44.364,replicate_nsd,2023.2.3,59.944038284407284,2024-03-13 15h54.55.682454 -0400,
images/19_12 copy 3.jpg,0,15,0,0,1,0,90,90,90,1085.8473584380008,,,,,,,,,,,,,,,,,,1085.8396101159997,1089.832411165,None,1089.8326178880016,,,1089.832661921002,None,,,1089.832789166001,1089.8374666980017,1094.8312222200002,1094.8224023869989,1085.8473584380008,1086.8375442979996,1086.8375442979996,1089.827651554002,1089.827651554002,1089.8374666980017,,,1,001,2024-03-13_15h54.44.364,replicate_nsd,2023.2.3,59.944038284407284,2024-03-13 15h54.55.682454 -0400,
images/20_12 copy 5.jpg,0,16,0,0,1,0,91,91,91,1094.8312222200002,,,,,,,,,,,,,,,,,,1094.822719439002,1098.816756141001,None,1098.8169285100012,,,1098.816964253001,None,,,1098.8170665399994,1098.8214878559993,1103.8154107369992,1103.8065110120006,1094.8312222200002,1095.8235825890006,1095.8235825890006,1098.8123026350004,1098.8123026350004,1098.8214878559993,,,1,001,2024-03-13_15h54.44.364,replicate_nsd,2023.2.3,59.944038284407284,2024-03-13 15h54.55.682454 -0400,
images/10_28 copy 5.jpg,0,17,0,0,1,0,92,92,92,1103.8154107369992,,,,,,,,,,,,,,,,,,1103.8068258890016,1107.8148799110022,None,1107.8150856989996,,,1107.815130343999,None,,,1107.8152574100022,1107.8201999910016,1112.8118167680004,1112.8048080340013,1103.8154107369992,1104.8307120009995,1104.8307120009995,1107.8201999910016,1107.8201999910016,1107.802450209001,,,1,001,2024-03-13_15h54.44.364,replicate_nsd,2023.2.3,59.944038284407284,2024-03-13 15h54.55.682454 -0400,
images/pair12 copy 5.jpg,0,18,0,0,1,0,93,93,93,1112.8118167680004,,,,,,,,,,,,,,,,,,1112.8050179099992,1116.7975104420002,None,1116.7977167130011,,,1116.7977613370022,None,,,1116.797888715002,1116.8025854360021,1121.7977192450016,1121.7885172450005,1112.8118167680004,1113.8047288160014,1113.8047288160014,1116.7929684800001,1116.7929684800001,1116.8025854360021,,,1,001,2024-03-13_15h54.44.364,replicate_nsd,2023.2.3,59.944038284407284,2024-03-13 15h54.55.682454 -0400,
images/5_0 copy 3.jpg,0,19,0,0,1,0,94,94,94,1121.7977192450016,,,,,,,,,,,,,,,,,,1121.7888474809988,1125.7822908830021,None,1125.7824424409991,,,1125.7824760690019,None,,,1125.7827930310013,1125.7870467540015,1130.7775392080002,1130.7703507020015,1121.7977192450016,1122.786515377,1122.786515377,1125.7744966909995,1125.7744966909995,1125.7870467540015,,,1,001,2024-03-13_15h54.44.364,replicate_nsd,2023.2.3,59.944038284407284,2024-03-13 15h54.55.682454 -0400,
images/blank.jpg,0,20,1,0,1,0,95,95,95,1130.7775392080002,,,,,,,,,,,,,,,,,,1130.770668355999,1130.7730438899998,None,1130.7732013070017,1130.7775392080002,1130.7775392080002,1134.7571268770007,None,,,1134.757278377001,1134.7614259210022,1139.751273228001,1139.7444577200004,,,,,,,,,1,001,2024-03-13_15h54.44.364,replicate_nsd,2023.2.3,59.944038284407284,2024-03-13 15h54.55.682454 -0400,
images/15_40 copy 5.jpg,0,21,0,0,1,0,96,96,96,1139.751273228001,,,,,,,,,,,,,,,,,,1139.7447743699995,1143.7365600070007,None,1143.7367307470013,,,1143.7367672399996,None,,,1143.736869010001,1143.7414372450003,1148.7363873620016,1148.7271657240017,1139.751273228001,1140.7461673510006,1140.7461673510006,1143.7363372030013,1143.7363372030013,1143.7414372450003,,,1,001,2024-03-13_15h54.44.364,replicate_nsd,2023.2.3,59.944038284407284,2024-03-13 15h54.55.682454 -0400,
images/10_0.jpg,0,22,0,0,1,0,97,97,97,1148.7363873620016,,,,,,,,,,,,,,,,,,1148.7277410970019,1152.7208443410018,None,1152.7210152770022,,,1152.7210514229992,None,,,1152.721153726001,1152.7254776369991,1157.7175143269997,1157.7093757990006,1148.7363873620016,1149.7275491540022,1149.7275491540022,1152.7163758499992,1152.7163758499992,1152.7254776369991,,,1,001,2024-03-13_15h54.44.364,replicate_nsd,2023.2.3,59.944038284407284,2024-03-13 15h54.55.682454 -0400,
images/10_28 copy 5.jpg,0,23,0,0,1,0,98,98,98,1157.7175143269997,,,,,,,,,,,,,,,,,,1157.7097690029987,1161.703825597,None,1161.7039999980007,,,1161.7040366770016,None,,,1161.7041403229996,1161.7083409490006,1166.704725776999,1166.6954485499991,1157.7175143269997,1158.710507832002,1158.710507832002,1161.6994161840012,1161.6994161840012,1161.7083409490006,,,1,001,2024-03-13_15h54.44.364,replicate_nsd,2023.2.3,59.944038284407284,2024-03-13 15h54.55.682454 -0400,
images/8_0 copy 6.jpg,0,24,0,0,1,0,99,99,99,1166.704725776999,,,,,,,,,,,,,,,,,,1166.6958311820017,1170.6879303189999,None,1170.6881365590016,,,1170.6881797650021,None,,,1170.6883063189998,1170.6931682790018,1175.6854472449995,1175.6769209689992,1166.704725776999,1167.6921988190006,1167.6921988190006,1170.683388038,1170.683388038,1170.6931682790018,,,1,001,2024-03-13_15h54.44.364,replicate_nsd,2023.2.3,59.944038284407284,2024-03-13 15h54.55.682454 -0400,
images/pair18 copy 4.jpg,0,25,0,0,1,0,100,100,100,1175.6854472449995,,,,,,,,,,,,,,,,,,1175.6772335610003,1179.6724153130017,None,1179.6725910630012,,,1179.672656611001,None,,,1179.6727920459998,1179.6772294930015,1184.671873891999,1184.6629958020021,1175.6854472449995,1176.678616600002,1176.678616600002,1179.6677382630005,1179.6677382630005,1179.6772294930015,,,1,001,2024-03-13_15h54.44.364,replicate_nsd,2023.2.3,59.944038284407284,2024-03-13 15h54.55.682454 -0400,
images/12_28.jpg,0,26,0,0,1,0,101,101,101,1184.671873891999,,,,,,,,,,,,,,,,,,1184.6633764079997,1188.6588671329991,None,1188.6590763519998,,,1188.6591217659989,None,,,1188.6592544070008,1188.6642911010022,1193.6595791639993,1193.6514573120003,1184.671873891999,1185.6633683920008,1185.6633683920008,1188.654376401999,1188.654376401999,1188.6642911010022,,,1,001,2024-03-13_15h54.44.364,replicate_nsd,2023.2.3,59.944038284407284,2024-03-13 15h54.55.682454 -0400,
images/10_0 copy.jpg,0,27,0,0,1,0,102,102,102,1193.6595791639993,,,,,,,,,,,,,,,,,,1193.6517743639997,1197.6444256260002,None,1197.6445979710006,,,1197.6446330440012,None,,,1197.644734808,1197.649426240001,1202.6456190860008,1202.6355195210017,1193.6595791639993,1194.6505725650022,1194.6505725650022,1197.6402382470005,1197.6402382470005,1197.649426240001,,,1,001,2024-03-13_15h54.44.364,replicate_nsd,2023.2.3,59.944038284407284,2024-03-13 15h54.55.682454 -0400,
images/pair02 copy.jpg,0,28,0,0,1,0,103,103,103,1202.6456190860008,,,,,,,,,,,,,,,,,,1202.635833010001,1206.6289111120022,None,1206.6290862560018,,,1206.6291283480023,None,,,1206.6292533380001,1206.633634062,1211.6287538399993,1211.6194158850012,1202.6456190860008,1203.6329506719994,1203.6329506719994,1206.6214071499999,1206.6214071499999,1206.633634062,,,1,001,2024-03-13_15h54.44.364,replicate_nsd,2023.2.3,59.944038284407284,2024-03-13 15h54.55.682454 -0400,
images/pair08 copy.jpg,0,29,0,0,1,0,104,104,104,1211.6287538399993,,,,,,,,,,,,,,,,,,1211.619699832001,1215.6133711319999,None,1215.613520097002,,,1215.6135542810007,None,,,1215.6136554450022,1215.6180950099988,1220.6092938229995,1220.601569270002,1211.6287538399993,1212.6184947410002,1212.6184947410002,1215.6063903169998,1215.6063903169998,1215.6180950099988,,,1,001,2024-03-13_15h54.44.364,replicate_nsd,2023.2.3,59.944038284407284,2024-03-13 15h54.55.682454 -0400,
images/blank.jpg,0,30,1,0,1,0,105,105,105,1220.6092938229995,,,,,,,,,,,,,,,,,,1220.6019591430013,1220.6049808429998,None,1220.6051380600002,1220.6092938229995,1220.6092938229995,1224.5916262479986,None,,,1224.5918039919998,1224.5963595030007,1229.5869542690016,1229.5807741530007,,,,,,,,,1,001,2024-03-13_15h54.44.364,replicate_nsd,2023.2.3,59.944038284407284,2024-03-13 15h54.55.682454 -0400,
images/16_28 copy 7.jpg,0,31,0,0,1,0,106,106,106,1229.5869542690016,,,,,,,,,,,,,,,,,,1229.5809827960002,1233.5702281129998,None,1233.5703763829988,,,1233.5704118499998,None,,,1233.5705148410016,1233.5745754970012,1238.5675772260001,1238.5586117519997,1229.5869542690016,1230.5822329309995,1230.5822329309995,1233.570065521999,1233.570065521999,1233.5745754970012,,,1,001,2024-03-13_15h54.44.364,replicate_nsd,2023.2.3,59.944038284407284,2024-03-13 15h54.55.682454 -0400,
images/15_0 copy 2.jpg,0,32,0,0,1,0,107,107,107,1238.5675772260001,,,,,,,,,,,,,,,,,,1238.558935191002,1242.5545030540015,None,1242.5546754669995,,,1242.554710790002,None,,,1242.5548128660012,1242.5592988530007,1247.5543820480016,1247.544970228002,1238.5675772260001,1239.5594001989994,1239.5594001989994,1242.550270361,1242.550270361,1242.5592988530007,,,1,001,2024-03-13_15h54.44.364,replicate_nsd,2023.2.3,59.944038284407284,2024-03-13 15h54.55.682454 -0400,
images/22_12.jpg,0,33,0,0,1,0,108,108,108,1247.5543820480016,,,,,,,,,,,,,,,,,,1247.5453523469987,1251.539918082999,None,1251.5400900530003,,,1251.5401252390002,None,,,1251.5402265939993,1251.5446593550005,1256.5355544740014,1256.527682166001,1247.5543820480016,1248.5467353700005,1248.5467353700005,1251.5354578160004,1251.5354578160004,1251.5446593550005,,,1,001,2024-03-13_15h54.44.364,replicate_nsd,2023.2.3,59.944038284407284,2024-03-13 15h54.55.682454 -0400,
images/10_28 copy 5.jpg,0,34,0,0,1,0,109,109,109,1256.5355544740014,,,,,,,,,,,,,,,,,,1256.5280006419998,1260.521329608,None,1260.5215357859997,,,1260.521579397002,None,,,1260.5217069130013,1260.5264018340022,1265.516453266002,1265.5097782109988,1256.5355544740014,1257.527459574001,1257.527459574001,1260.5168615049988,1260.5168615049988,1260.5264018340022,,,1,001,2024-03-13_15h54.44.364,replicate_nsd,2023.2.3,59.944038284407284,2024-03-13 15h54.55.682454 -0400,
images/10_0 copy 7.jpg,0,35,0,0,1,0,110,110,110,1265.516453266002,,,,,,,,,,,,,,,,,,1265.510099559,1269.5015092130016,None,1269.5017133869987,,,1269.5017568600015,None,,,1269.501883836001,1269.506817122001,1274.502614514,1274.4945346890017,1265.516453266002,1266.5109268039996,1266.5109268039996,1269.501244670002,1269.501244670002,1269.506817122001,,,1,001,2024-03-13_15h54.44.364,replicate_nsd,2023.2.3,59.944038284407284,2024-03-13 15h54.55.682454 -0400,
images/10_0 copy.jpg,0,36,0,0,1,0,111,111,111,1274.502614514,,,,,,,,,,,,,,,,,,1274.494912088001,1278.487750012002,None,1278.4878726009993,,,1278.4879008320022,None,,,1278.4879853169987,1278.4920719660004,1283.4858672810005,1283.477838617,1274.502614514,1275.489293008999,1275.489293008999,1278.4784838769992,1278.4784838769992,1278.4920719660004,,,1,001,2024-03-13_15h54.44.364,replicate_nsd,2023.2.3,59.944038284407284,2024-03-13 15h54.55.682454 -0400,
images/pair01 copy.jpg,0,37,0,0,1,0,112,112,112,1283.4858672810005,,,,,,,,,,,,,,,,,,1283.4780530880016,1287.4688180039993,None,1287.4689904859988,,,1287.4690253670014,None,,,1287.4691270500007,1287.4736492800002,1292.4791459830012,1292.463966547999,1283.4858672810005,1284.476491024001,1284.476491024001,1287.464658533001,1287.464658533001,1287.4736492800002,,,1,001,2024-03-13_15h54.44.364,replicate_nsd,2023.2.3,59.944038284407284,2024-03-13 15h54.55.682454 -0400,
images/20_40 copy 2.jpg,0,38,0,0,1,0,113,113,113,1292.4791459830012,,,,,,,,,,,,,,,,,,1292.4642816590022,1296.4643826190004,None,1296.464590579999,,,1296.4646343050008,None,,,1296.464760204999,1296.469586274001,1301.4594835089993,1301.4534426140017,1292.4791459830012,1293.479964918999,1293.479964918999,1296.469586274001,1296.469586274001,1296.469586274001,,,1,001,2024-03-13_15h54.44.364,replicate_nsd,2023.2.3,59.944038284407284,2024-03-13 15h54.55.682454 -0400,
images/20_40 copy.jpg,0,39,0,0,1,0,114,114,114,1301.4594835089993,,,,,,,,,,,,,,,,,,1301.4536483100019,1305.4443879620012,None,1305.4444851430017,,,1305.4445056860022,None,,,1305.4445662780017,1305.4479281999993,1310.4425185219989,1310.4349182520018,1301.4594835089993,1302.4526191120021,1302.4526191120021,1305.4412649530022,1305.4412649530022,1305.4479281999993,,,1,001,2024-03-13_15h54.44.364,replicate_nsd,2023.2.3,59.944038284407284,2024-03-13 15h54.55.682454 -0400,
images/blank.jpg,0,40,1,0,1,0,115,115,115,1310.4425185219989,,,,,,,,,,,,,,,,,,1310.4353004619988,1310.4380351229993,None,1310.4382790160016,1310.4425185219989,1310.4425185219989,1314.4239990800015,k,3.967312173997925,None,1314.4242879529993,1314.4290210360014,1319.421495237002,1319.4129073840013,,,,,,,,,1,001,2024-03-13_15h54.44.364,replicate_nsd,2023.2.3,59.944038284407284,2024-03-13 15h54.55.682454 -0400,
images/6_28 copy.jpg,0,41,0,0,1,0,116,116,116,1319.421495237002,,,,,,,,,,,,,,,,,,1319.4131953399992,1323.4064691790009,None,1323.406611194001,,,1323.4066459919995,None,,,1323.4067450969997,1323.4108110589987,1328.4052413220015,1328.3963593629996,1319.421495237002,1320.4123352259994,1320.4123352259994,1323.3996157930014,1323.3996157930014,1323.4108110589987,,,1,001,2024-03-13_15h54.44.364,replicate_nsd,2023.2.3,59.944038284407284,2024-03-13 15h54.55.682454 -0400,
images/21_40 copy 2.jpg,0,42,0,0,1,0,117,117,117,1328.4052413220015,,,,,,,,,,,,,,,,,,1328.396674003001,1332.3896230880018,None,1332.3897729790006,,,1332.3898083140011,None,,,1332.3899123949996,1332.394159407002,1337.3873114320013,1337.3798474319992,1328.4052413220015,1329.3965832390022,1329.3965832390022,1332.386217080002,1332.386217080002,1332.394159407002,,,1,001,2024-03-13_15h54.44.364,replicate_nsd,2023.2.3,59.944038284407284,2024-03-13 15h54.55.682454 -0400,
images/17_40 copy 5.jpg,0,43,0,0,1,0,118,118,118,1337.3873114320013,,,,,,,,,,,,,,,,,,1337.3802313720007,1341.3709707820017,None,1341.3711438480022,,,1341.3711785500018,None,,,1341.3712806309995,1341.3755968859987,1346.3698344229997,1346.3604538629988,1337.3873114320013,1338.3772373720021,1338.3772373720021,1341.3667946679998,1341.3667946679998,1341.3755968859987,,,1,001,2024-03-13_15h54.44.364,replicate_nsd,2023.2.3,59.944038284407284,2024-03-13 15h54.55.682454 -0400,
images/21_12 copy 5.jpg,0,44,0,0,1,0,119,119,119,1346.3698344229997,,,,,,,,,,,,,,,,,,1346.3608383060018,1350.355487896999,None,1350.3556594110014,,,1350.355695139002,None,,,1350.3557972540002,1350.360154001999,1355.356322175001,1355.3464197920002,1346.3698344229997,1347.3610402970007,1347.3610402970007,1350.351091896002,1350.351091896002,1350.360154001999,,,1,001,2024-03-13_15h54.44.364,replicate_nsd,2023.2.3,59.944038284407284,2024-03-13 15h54.55.682454 -0400,
images/9_12 copy 7.jpg,0,45,0,0,1,0,120,120,120,1355.356322175001,,,,,,,,,,,,,,,,,,1355.3468025850016,1359.341726843002,None,1359.3419006350014,,,1359.341938728001,None,,,1359.3420444430012,1359.3466647610003,1364.3420567089997,1364.3340525620006,1355.356322175001,1356.3470096499987,1356.3470096499987,1359.3375919390019,1359.3375919390019,1359.3466647610003,,,1,001,2024-03-13_15h54.44.364,replicate_nsd,2023.2.3,59.944038284407284,2024-03-13 15h54.55.682454 -0400,
images/pair02 copy.jpg,0,46,0,0,1,0,121,121,121,1364.3420567089997,,,,,,,,,,,,,,,,,,1364.3343730519991,1368.3280861150015,None,1368.3282363780017,,,1368.3282701710013,None,,,1368.3283715420002,1368.3324064480003,1373.3248181950003,1373.3155271649994,1364.3420567089997,1365.3331212129997,1365.3331212129997,1368.3202003459992,1368.3202003459992,1368.3324064480003,,,1,001,2024-03-13_15h54.44.364,replicate_nsd,2023.2.3,59.944038284407284,2024-03-13 15h54.55.682454 -0400,
images/20_0 copy 5.jpg,0,47,0,0,1,0,122,122,122,1373.3248181950003,,,,,,,,,,,,,,,,,,1373.3158434329998,1377.3109178369996,None,1377.3110903720008,,,1377.3111250459988,None,,,1377.3112261210008,1377.3157720500021,1382.3072207660007,1382.2993972619988,1373.3248181950003,1374.317667252999,1374.317667252999,1377.3067850830012,1377.3067850830012,1377.3157720500021,,,1,001,2024-03-13_15h54.44.364,replicate_nsd,2023.2.3,59.944038284407284,2024-03-13 15h54.55.682454 -0400,
images/19_12 copy 3.jpg,0,48,0,0,1,0,123,123,123,1382.3072207660007,,,,,,,,,,,,,,,,,,1382.2997141740016,1386.290866825002,None,1386.2910390620018,,,1386.2910737109996,None,,,1386.291176199,1386.2957271150008,1391.2891883340017,1391.2812304260005,1382.3072207660007,1383.3012757040015,1383.3012757040015,1386.2906459699989,1386.2906459699989,1386.2957271150008,,,1,001,2024-03-13_15h54.44.364,replicate_nsd,2023.2.3,59.944038284407284,2024-03-13 15h54.55.682454 -0400,
images/22_12 copy 7.jpg,0,49,0,0,1,0,124,124,124,1391.2891883340017,,,,,,,,,,,,,,,,,,1391.2815417790007,1395.2722095159988,None,1395.272416033,,,1395.2724617509994,None,,,1395.2725896340016,1395.2771607229988,1400.2716092699993,1400.2639517530006,1391.2891883340017,1392.2804410259996,1392.2804410259996,1395.2679175340018,1395.2679175340018,1395.2771607229988,,,1,001,2024-03-13_15h54.44.364,replicate_nsd,2023.2.3,59.944038284407284,2024-03-13 15h54.55.682454 -0400,
images/blank.jpg,0,50,1,0,1,0,125,125,125,1400.2716092699993,,,,,,,,,,,,,,,,,,1400.2642699649987,1400.2669367160015,None,1400.2672276960002,1400.2716092699993,1400.2716092699993,1404.2518925590011,None,,,1404.2521013080004,1404.2568536100007,1409.252357079,1409.242297099001,,,,,,,,,1,001,2024-03-13_15h54.44.364,replicate_nsd,2023.2.3,59.944038284407284,2024-03-13 15h54.55.682454 -0400,
images/pair08 copy 7.jpg,0,51,0,0,1,0,126,126,126,1409.252357079,,,,,,,,,,,,,,,,,,1409.242613762999,1413.2376216189987,None,1413.237792920001,,,1413.2378298500007,None,,,1413.2379326080008,1413.2421691109994,1418.2350381409997,1418.2258537599992,1409.252357079,1410.240220664,1410.240220664,1413.2297625140018,1413.2297625140018,1413.2421691109994,,,1,001,2024-03-13_15h54.44.364,replicate_nsd,2023.2.3,59.944038284407284,2024-03-13 15h54.55.682454 -0400,
images/23_40 copy.jpg,0,52,0,0,1,0,127,127,127,1418.2350381409997,,,,,,,,,,,,,,,,,,1418.2261720150018,1422.2189525909998,None,1422.219126300999,,,1422.219162190002,None,,,1422.2192624550007,1422.2237095550008,1427.2188950790005,1427.2100091520006,1418.2350381409997,1419.2255212269993,1419.2255212269993,1422.2147761490014,1422.2147761490014,1422.2237095550008,,,1,001,2024-03-13_15h54.44.364,replicate_nsd,2023.2.3,59.944038284407284,2024-03-13 15h54.55.682454 -0400,
images/pair18 copy 4.jpg,0,53,0,0,1,0,128,128,128,1427.2188950790005,,,,,,,,,,,,,,,,,,1427.2103251180015,1431.203869129,None,1431.2040420449994,,,1431.2040772180007,None,,,1431.2041803520005,1431.2086284469988,1436.202481147,1436.194866627,1427.2188950790005,1428.2106941230013,1428.2106941230013,1431.1996161030002,1431.1996161030002,1431.2086284469988,,,1,001,2024-03-13_15h54.44.364,replicate_nsd,2023.2.3,59.944038284407284,2024-03-13 15h54.55.682454 -0400,
images/13_0 copy 3.jpg,0,54,0,0,1,0,129,129,129,1436.202481147,,,,,,,,,,,,,,,,,,1436.1951824960015,1440.1859148840012,None,1440.1861201640022,,,1440.1861635329988,None,,,1440.1862907409995,1440.191029624999,1445.1861250389993,1445.1769785780016,1436.202481147,1437.1918990580016,1437.1918990580016,1440.1816565129993,1440.1816565129993,1440.191029624999,,,1,001,2024-03-13_15h54.44.364,replicate_nsd,2023.2.3,59.944038284407284,2024-03-13 15h54.55.682454 -0400,
images/23_28.jpg,0,55,0,0,1,0,130,130,130,1445.1861250389993,,,,,,,,,,,,,,,,,,1445.1772930480001,1449.170841733001,None,1449.171014298001,,,1449.1710497189997,None,,,1449.1711512809998,1449.175580463001,1454.171182913,1454.1620463170002,1445.1861250389993,1446.1747449079994,1446.1747449079994,1449.1626650780017,1449.1626650780017,1449.175580463001,,,1,001,2024-03-13_15h54.44.364,replicate_nsd,2023.2.3,59.944038284407284,2024-03-13 15h54.55.682454 -0400,
images/21_28.jpg,0,56,0,0,1,0,131,131,131,1454.171182913,,,,,,,,,,,,,,,,,,1454.1624319660004,1458.1582412089992,None,1458.158449011,,,1458.158494616,None,,,1458.158623014002,1458.1644178880015,1463.1546632659993,1463.1475346320003,1454.171182913,1455.1601374660022,1455.1601374660022,1458.152876414002,1458.152876414002,1458.1644178880015,,,1,001,2024-03-13_15h54.44.364,replicate_nsd,2023.2.3,59.944038284407284,2024-03-13 15h54.55.682454 -0400,
images/15_0 copy 2.jpg,0,57,0,0,1,0,132,132,132,1463.1546632659993,,,,,,,,,,,,,,,,,,1463.1478480900005,1467.1383040479996,None,1467.138474626001,,,1467.1385108460017,None,,,1467.1386116430003,1467.1430202670017,1472.1358519409987,1472.1269196030007,1463.1546632659993,1464.1495795449991,1464.1495795449991,1467.1380815539997,1467.1380815539997,1467.1430202670017,,,1,001,2024-03-13_15h54.44.364,replicate_nsd,2023.2.3,59.944038284407284,2024-03-13 15h54.55.682454 -0400,
images/7_12 copy 3.jpg,0,58,0,0,1,0,133,133,133,1472.1358519409987,,,,,,,,,,,,,,,,,,1472.1273077920014,1476.1206005429995,None,1476.1207704270018,,,1476.1208061899997,None,,,1476.1209064530012,1476.1251379259993,1481.1197774760003,1481.1109387959987,1472.1358519409987,1473.1262804770013,1473.1262804770013,1476.1164216750003,1476.1164216750003,1476.1251379259993,,,1,001,2024-03-13_15h54.44.364,replicate_nsd,2023.2.3,59.944038284407284,2024-03-13 15h54.55.682454 -0400,
images/22_40 copy 7.jpg,0,59,0,0,1,0,134,134,134,1481.1197774760003,,,,,,,,,,,,,,,,,,1481.111251786002,1485.1033420210006,None,1485.1035123469992,,,1485.1035479089987,None,,,1485.1036486490011,1485.1079183090005,1490.102413085002,1490.093119399,1481.1197774760003,1482.1117682139993,1482.1117682139993,1485.1031183390005,1485.1031183390005,1485.1079183090005,,,1,001,2024-03-13_15h54.44.364,replicate_nsd,2023.2.3,59.944038284407284,2024-03-13 15h54.55.682454 -0400,
images/10_12.jpg,0,60,0,0,1,0,135,135,135,1490.102413085002,,,,,,,,,,,,,,,,,,1490.0934342580003,1494.0874650990008,None,1494.0876354399988,,,1494.0876704190014,None,,,1494.087772297,1494.0919695420016,1499.0833583519998,1499.0765828860021,1490.102413085002,1491.0916467839997,1491.0916467839997,1494.0792744550017,1494.0792744550017,1494.0919695420016,,,1,001,2024-03-13_15h54.44.364,replicate_nsd,2023.2.3,59.944038284407284,2024-03-13 15h54.55.682454 -0400,
images/24_28 copy 6.jpg,0,61,0,0,1,0,136,136,136,1499.0833583519998,,,,,,,,,,,,,,,,,,1499.0768306620012,1503.0677261300007,None,1503.0678971429988,,,1503.067933112001,None,,,1503.0680340100007,1503.0723244299988,1508.0645085069991,1508.0568847899995,1499.0833583519998,1500.0767131079992,1500.0767131079992,1503.0636686790021,1503.0636686790021,1503.0723244299988,,,1,001,2024-03-13_15h54.44.364,replicate_nsd,2023.2.3,59.944038284407284,2024-03-13 15h54.55.682454 -0400,
images/6_12 copy 3.jpg,0,62,0,0,1,0,137,137,137,1508.0645085069991,,,,,,,,,,,,,,,,,,1508.057240123002,1512.049635452,None,1512.0498071740003,,,1512.049842321001,None,,,1512.0499435269994,1512.0543645399994,1517.0504514099994,1517.0406200889993,1508.0645085069991,1509.0583996200003,1509.0583996200003,1512.0454892919988,1512.0454892919988,1512.0543645399994,,,1,001,2024-03-13_15h54.44.364,replicate_nsd,2023.2.3,59.944038284407284,2024-03-13 15h54.55.682454 -0400,
images/pair04 copy.jpg,0,63,0,0,1,0,138,138,138,1517.0504514099994,,,,,,,,,,,,,,,,,,1517.040955507,1521.037260301,None,1521.037430245,,,1521.0374660279995,None,,,1521.0375668849993,1521.0418575600015,1526.0375688050008,1526.027458482,1517.0504514099994,1518.0406194489988,1518.0406194489988,1521.0290873289996,1521.0290873289996,1521.0418575600015,,,1,001,2024-03-13_15h54.44.364,replicate_nsd,2023.2.3,59.944038284407284,2024-03-13 15h54.55.682454 -0400,
images/18_0 copy.jpg,0,64,0,0,1,0,139,139,139,1526.0375688050008,,,,,,,,,,,,,,,,,,1526.0277714420008,1530.020981272999,None,1530.0211528030013,,,1530.021188630999,None,,,1530.0212896049998,1530.0257383099997,1535.0205784259997,1535.0123572670018,1526.0375688050008,1527.0292557079993,1527.0292557079993,1530.0168091550004,1530.0168091550004,1530.0257383099997,,,1,001,2024-03-13_15h54.44.364,replicate_nsd,2023.2.3,59.944038284407284,2024-03-13 15h54.55.682454 -0400,
images/20_40 copy.jpg,0,65,0,0,1,0,140,140,140,1535.0205784259997,,,,,,,,,,,,,,,,,,1535.012735747001,1539.005123146002,None,1539.0052936440006,,,1539.0053291190015,None,,,1539.0054304410005,1539.009918279,1544.0028979669987,1543.9959200449994,1535.0205784259997,1536.0113838270008,1536.0113838270008,1539.0009225020003,1539.0009225020003,1539.009918279,,,1,001,2024-03-13_15h54.44.364,replicate_nsd,2023.2.3,59.944038284407284,2024-03-13 15h54.55.682454 -0400,
images/17_40 copy 5.jpg,0,66,0,0,1,0,141,141,141,1544.0028979669987,,,,,,,,,,,,,,,,,,1543.9963034339999,1547.9864910309989,None,1547.9866628179989,,,1547.9866988009999,None,,,1547.9867993139997,1547.9910660700007,1552.9825560319987,1552.974546499001,1544.0028979669987,1544.9963102889997,1544.9963102889997,1547.9862674190008,1547.9862674190008,1547.9910660700007,,,1,001,2024-03-13_15h54.44.364,replicate_nsd,2023.2.3,59.944038284407284,2024-03-13 15h54.55.682454 -0400,
images/19_28 copy 5.jpg,0,67,0,0,1,0,142,142,142,1552.9825560319987,,,,,,,,,,,,,,,,,,1552.9748660740006,1556.968369962,None,1556.968541913,,,1556.9685776110018,None,,,1556.9686781759992,1556.973107269001,1561.9682290109995,1561.959250117001,1552.9825560319987,1553.9767043950014,1553.9767043950014,1556.964177148002,1556.964177148002,1556.973107269001,,,1,001,2024-03-13_15h54.44.364,replicate_nsd,2023.2.3,59.944038284407284,2024-03-13 15h54.55.682454 -0400,
images/22_28 copy.jpg,0,68,0,0,1,0,143,143,143,1561.9682290109995,,,,,,,,,,,,,,,,,,1561.9596324529994,1565.9807249449987,None,1565.980939563,,,1565.980988211999,None,,,1565.981117165,1565.9955497190022,1570.9955526189988,1570.9790461250013,1561.9682290109995,1562.9820053740004,1562.9820053740004,,,1565.9805877510007,,,1,001,2024-03-13_15h54.44.364,replicate_nsd,2023.2.3,59.944038284407284,2024-03-13 15h54.55.682454 -0400,
images/7_12 copy 3.jpg,0,69,0,0,1,0,144,144,144,1570.9955526189988,,,,,,,,,,,,,,,,,,1570.979437924001,1574.9792256860019,None,1574.9794327119998,,,1574.9794748429995,None,,,1574.9795974959998,1574.9958092919987,,1579.9954814890007,1570.9955526189988,1571.9958962700002,1571.9958962700002,1574.9958092919987,1574.9958092919987,1574.9958092919987,,,1,001,2024-03-13_15h54.44.364,replicate_nsd,2023.2.3,59.944038284407284,2024-03-13 15h54.55.682454 -0400,
images/pair08 copy 7.jpg,0,70,0,0,1,0,145,145,145,1580.012100879001,,,,,,,,,,,,,,,,,,1579.9958014840013,1583.9955541669988,None,1583.9957352890015,,,1583.9957730839997,None,,,1583.9958761849994,1584.0123347529989,,1589.000735302001,1580.012100879001,1580.9954965280012,1580.9954965280012,1583.9954332029993,1583.9954332029993,,,,1,001,2024-03-13_15h54.44.364,replicate_nsd,2023.2.3,59.944038284407284,2024-03-13 15h54.55.682454 -0400,
images/blank.jpg,0,71,1,0,1,0,146,146,146,1589.0167088410017,,,,,,,,,,,,,,,,,,1589.0011509819997,1589.004272025999,None,1589.0044291039994,1589.0167088410017,1589.0167088410017,1592.996741275001,lctrl,2.7532395210000686,None,1592.9969844049992,1593.010849958002,1598.0121333140014,1597.995457617999,,,,,,,,,1,001,2024-03-13_15h54.44.364,replicate_nsd,2023.2.3,59.944038284407284,2024-03-13 15h54.55.682454 -0400,
images/blank.jpg,0,72,1,0,1,0,147,147,147,1598.0121333140014,,,,,,,,,,,,,,,,,,1597.995825074002,1597.9983279810003,None,1597.9984592040018,1598.0121333140014,1598.0121333140014,1601.9956789470016,5,0.10164045999772497,None,1601.9960859179992,1602.0119190090008,,1606.9984709910023,,,,,,,1602.0119190090008,1602.0119190090008,1,001,2024-03-13_15h54.44.364,replicate_nsd,2023.2.3,59.944038284407284,2024-03-13 15h54.55.682454 -0400,
images/blank.jpg,0,73,1,0,1,0,148,148,148,1607.0148860260015,,,,,,,,,,,,,,,,,,1606.9988712800005,1607.0011806309994,None,1607.0013040830017,1607.0148860260015,1607.0148860260015,1610.9953891940022,None,,,1610.9955601059992,1611.012249937001,,1615.9958820610009,,,,,,,,,1,001,2024-03-13_15h54.44.364,replicate_nsd,2023.2.3,59.944038284407284,2024-03-13 15h54.55.682454 -0400,
images/blank.jpg,0,74,1,1,1,0,149,149,149,1616.012605109001,,,,,,,,,,,,,,,,,,1615.9962846470007,1615.9989737760006,None,1615.999126603001,1616.012605109001,1616.012605109001,1619.9983757849986,None,,,1619.998586283,,,1619.9986312990004,,,,,,,1620.0124856760012,1620.0124856760012,1,001,2024-03-13_15h54.44.364,replicate_nsd,2023.2.3,59.944038284407284,2024-03-13 15h54.55.682454 -0400,
images/blank.jpg,0,0,1,0,2,0,150,150,150,1620.0124856760012,,,,,,,,,,,,,,,,,,1619.9989374210018,1620.0013586800014,None,1620.0015312530013,1620.0124856760012,1620.0124856760012,1623.9960629230009,lctrl,0.9574745019999682,None,1623.9964716470022,1624.0126046639998,1629.0128082090014,1628.996250635002,,,,,,,1624.0126046639998,1624.0126046639998,1,001,2024-03-13_15h54.44.364,replicate_nsd,2023.2.3,59.944038284407284,2024-03-13 15h54.55.682454 -0400,
images/blank.jpg,0,1,1,0,2,0,151,151,151,1629.0128082090014,,,,,,,,,,,,,,,,,,1628.9966372890012,1628.9989658859995,None,1628.9990910330016,1629.0128082090014,1629.0128082090014,1632.9962091140005,lctrl,0.03710575899822288,None,1632.996627681001,1633.0124971920013,,1638.0117381700002,,,,,,,1633.0124971920013,1633.0124971920013,1,001,2024-03-13_15h54.44.364,replicate_nsd,2023.2.3,59.944038284407284,2024-03-13 15h54.55.682454 -0400,
images/blank.jpg,0,2,1,0,2,0,152,152,152,1638.0286948739995,,,,,,,,,,,,,,,,,,1638.0120511070018,1638.0141948519995,None,1638.0143229739988,1638.0286948739995,1638.0286948739995,1641.9986679390022,v,3.7692500169978302,None,1641.999077479999,1642.0116671610012,1647.0125519290013,1646.9959996850012,,,,,,,,,1,001,2024-03-13_15h54.44.364,replicate_nsd,2023.2.3,59.944038284407284,2024-03-13 15h54.55.682454 -0400,
images/14_12 copy 6.jpg,0,3,0,0,2,0,153,153,153,1647.0125519290013,,,,,,,,,,,,,,,,,,1646.9963814580005,1651.0121205899995,None,1651.0122914320018,,,1651.012332098002,None,,,1651.0124372520004,1651.0286536439999,,1656.0126167279996,1647.0125519290013,1648.0116892190017,1648.0116892190017,1651.0120203529987,1651.0120203529987,,,,1,001,2024-03-13_15h54.44.364,replicate_nsd,2023.2.3,59.944038284407284,2024-03-13 15h54.55.682454 -0400,
images/12_0.jpg,0,4,0,0,2,0,154,154,154,1656.0289732089987,,,,,,,,,,,,,,,,,,1656.0130165670016,1660.0126221130013,None,1660.0128413009988,,,1660.0128883889993,None,,,1660.0130116420005,1660.0289416180021,,1665.0130467080016,1656.0289732089987,1657.027945730002,1657.027945730002,,,,,,1,001,2024-03-13_15h54.44.364,replicate_nsd,2023.2.3,59.944038284407284,2024-03-13 15h54.55.682454 -0400,
,,,,,,,,,,1665.027524510002,,,,,,,,,,,,,,,,,,1665.0132945629994,1669.0123357459997,None,1669.012652065001,,,1669.012696894999,None,,,1669.0128242470018,1669.0300730880008,,,1665.027524510002,1666.0121465859993,1666.0121465859993,1669.0119471210019,1669.0119471210019,1669.0300730880008,,,,,,,,,,
